VPID	SESSION_ID	DATE	BLOCK	TRIAL	PX0	PY0	PX1	PY1	PX2	PY2	PX3	PY3	PX4	PY4	PX5	PY5	PX6	PY6	PX7	PY7	PX8	PY8	PX9	PY9	PX10	PY10	PX11	PY11	PX12	PY12	PX13	PY13	PX14	PY14	PX15	PY15	PX16	PY16	PX17	PY17	PX18	PY18	PX19	PY19	PX20	PY20	PX21	PY21	PX22	PY22	PX23	PY23	PX24	PY24	AX	AY	AD	RT1	RT2	Resp1	Resp2	Corr1	Corr2
00167	1	11.2.2020	0	0	1	2	3	1	2	3	0	1	-999	-999	-999	-999	-999	-999	-999	-999	-999	-999	-999	-999	-999	-999	-999	-999	-999	-999	-999	-999	-999	-999	-999	-999	-999	-999	-999	-999	-999	-999	-999	-999	-999	-999	-999	-999	-999	-999	-999	-999	-999	-999	3	1	2	2646	-999	0	-999	0	-999	
00167	1	11.2.2020	0	1	3	2	1	2	2	0	2	1	-999	-999	-999	-999	-999	-999	-999	-999	-999	-999	-999	-999	-999	-999	-999	-999	-999	-999	-999	-999	-999	-999	-999	-999	-999	-999	-999	-999	-999	-999	-999	-999	-999	-999	-999	-999	-999	-999	-999	-999	-999	-999	1	2	2	1539	1448	1	1	1	1	
00167	1	11.2.2020	0	2	2	1	0	0	1	2	3	0	2	0	1	3	3	3	-999	-999	-999	-999	-999	-999	-999	-999	-999	-999	-999	-999	-999	-999	-999	-999	-999	-999	-999	-999	-999	-999	-999	-999	-999	-999	-999	-999	-999	-999	-999	-999	-999	-999	-999	-999	3	3	3	1026	736	1	0	1	1	
00167	1	11.2.2020	0	3	0	3	3	2	3	3	1	3	0	2	2	1	0	0	-999	-999	-999	-999	-999	-999	-999	-999	-999	-999	-999	-999	-999	-999	-999	-999	-999	-999	-999	-999	-999	-999	-999	-999	-999	-999	-999	-999	-999	-999	-999	-999	-999	-999	-999	-999	0	2	7	1815	1217	1	0	1	1	
00167	1	11.2.2020	1	0	1	1	2	2	2	1	2	3	-999	-999	-999	-999	-999	-999	-999	-999	-999	-999	-999	-999	-999	-999	-999	-999	-999	-999	-999	-999	-999	-999	-999	-999	-999	-999	-999	-999	-999	-999	-999	-999	-999	-999	-999	-999	-999	-999	-999	-999	-999	-999	2	2	2	1408	1288	1	1	1	1	
00167	1	11.2.2020	1	1	2	3	1	1	3	2	0	3	-999	-999	-999	-999	-999	-999	-999	-999	-999	-999	-999	-999	-999	-999	-999	-999	-999	-999	-999	-999	-999	-999	-999	-999	-999	-999	-999	-999	-999	-999	-999	-999	-999	-999	-999	-999	-999	-999	-999	-999	-999	-999	1	3	4	1167	-999	0	-999	1	-999	
00167	1	11.2.2020	1	2	3	2	1	0	3	0	2	0	-999	-999	-999	-999	-999	-999	-999	-999	-999	-999	-999	-999	-999	-999	-999	-999	-999	-999	-999	-999	-999	-999	-999	-999	-999	-999	-999	-999	-999	-999	-999	-999	-999	-999	-999	-999	-999	-999	-999	-999	-999	-999	3	2	1	1374	927	1	1	1	1	
00167	1	11.2.2020	1	3	0	0	2	0	3	3	0	3	-999	-999	-999	-999	-999	-999	-999	-999	-999	-999	-999	-999	-999	-999	-999	-999	-999	-999	-999	-999	-999	-999	-999	-999	-999	-999	-999	-999	-999	-999	-999	-999	-999	-999	-999	-999	-999	-999	-999	-999	-999	-999	3	3	4	1405	871	1	0	1	1	
00167	1	11.2.2020	1	4	2	2	1	0	2	0	0	3	-999	-999	-999	-999	-999	-999	-999	-999	-999	-999	-999	-999	-999	-999	-999	-999	-999	-999	-999	-999	-999	-999	-999	-999	-999	-999	-999	-999	-999	-999	-999	-999	-999	-999	-999	-999	-999	-999	-999	-999	-999	-999	0	1	2	900	-999	0	-999	1	-999	
00167	1	11.2.2020	1	5	3	2	0	3	1	2	3	1	-999	-999	-999	-999	-999	-999	-999	-999	-999	-999	-999	-999	-999	-999	-999	-999	-999	-999	-999	-999	-999	-999	-999	-999	-999	-999	-999	-999	-999	-999	-999	-999	-999	-999	-999	-999	-999	-999	-999	-999	-999	-999	3	2	1	1225	792	1	1	1	1	
00167	1	11.2.2020	1	6	2	0	3	2	3	3	0	3	-999	-999	-999	-999	-999	-999	-999	-999	-999	-999	-999	-999	-999	-999	-999	-999	-999	-999	-999	-999	-999	-999	-999	-999	-999	-999	-999	-999	-999	-999	-999	-999	-999	-999	-999	-999	-999	-999	-999	-999	-999	-999	3	3	4	1184	753	1	0	1	1	
00167	1	11.2.2020	1	7	0	1	1	0	0	0	3	0	-999	-999	-999	-999	-999	-999	-999	-999	-999	-999	-999	-999	-999	-999	-999	-999	-999	-999	-999	-999	-999	-999	-999	-999	-999	-999	-999	-999	-999	-999	-999	-999	-999	-999	-999	-999	-999	-999	-999	-999	-999	-999	0	1	1	1217	704	1	1	1	1	
00167	1	11.2.2020	1	8	1	2	0	1	2	3	0	2	-999	-999	-999	-999	-999	-999	-999	-999	-999	-999	-999	-999	-999	-999	-999	-999	-999	-999	-999	-999	-999	-999	-999	-999	-999	-999	-999	-999	-999	-999	-999	-999	-999	-999	-999	-999	-999	-999	-999	-999	-999	-999	1	2	3	1081	1272	1	0	1	1	
00167	1	11.2.2020	1	9	0	0	3	1	3	0	0	3	-999	-999	-999	-999	-999	-999	-999	-999	-999	-999	-999	-999	-999	-999	-999	-999	-999	-999	-999	-999	-999	-999	-999	-999	-999	-999	-999	-999	-999	-999	-999	-999	-999	-999	-999	-999	-999	-999	-999	-999	-999	-999	0	3	4	1001	568	1	1	1	1	
00167	1	11.2.2020	1	10	0	2	2	3	2	1	2	2	-999	-999	-999	-999	-999	-999	-999	-999	-999	-999	-999	-999	-999	-999	-999	-999	-999	-999	-999	-999	-999	-999	-999	-999	-999	-999	-999	-999	-999	-999	-999	-999	-999	-999	-999	-999	-999	-999	-999	-999	-999	-999	1	2	4	945	-999	0	-999	1	-999	
00167	1	11.2.2020	1	11	1	1	3	3	3	1	0	2	-999	-999	-999	-999	-999	-999	-999	-999	-999	-999	-999	-999	-999	-999	-999	-999	-999	-999	-999	-999	-999	-999	-999	-999	-999	-999	-999	-999	-999	-999	-999	-999	-999	-999	-999	-999	-999	-999	-999	-999	-999	-999	3	3	2	1183	881	1	1	1	1	
00167	1	11.2.2020	1	12	0	2	3	1	1	1	2	0	-999	-999	-999	-999	-999	-999	-999	-999	-999	-999	-999	-999	-999	-999	-999	-999	-999	-999	-999	-999	-999	-999	-999	-999	-999	-999	-999	-999	-999	-999	-999	-999	-999	-999	-999	-999	-999	-999	-999	-999	-999	-999	2	0	1	855	657	1	0	1	1	
00167	1	11.2.2020	1	13	0	0	2	1	0	3	1	1	-999	-999	-999	-999	-999	-999	-999	-999	-999	-999	-999	-999	-999	-999	-999	-999	-999	-999	-999	-999	-999	-999	-999	-999	-999	-999	-999	-999	-999	-999	-999	-999	-999	-999	-999	-999	-999	-999	-999	-999	-999	-999	2	1	2	1000	919	1	1	1	1	
00167	1	11.2.2020	1	14	2	2	1	1	1	3	0	3	-999	-999	-999	-999	-999	-999	-999	-999	-999	-999	-999	-999	-999	-999	-999	-999	-999	-999	-999	-999	-999	-999	-999	-999	-999	-999	-999	-999	-999	-999	-999	-999	-999	-999	-999	-999	-999	-999	-999	-999	-999	-999	1	3	2	807	640	1	0	1	1	
00167	1	11.2.2020	1	15	1	1	2	3	3	0	1	3	-999	-999	-999	-999	-999	-999	-999	-999	-999	-999	-999	-999	-999	-999	-999	-999	-999	-999	-999	-999	-999	-999	-999	-999	-999	-999	-999	-999	-999	-999	-999	-999	-999	-999	-999	-999	-999	-999	-999	-999	-999	-999	3	0	3	976	880	1	1	1	1	
00167	1	11.2.2020	1	16	0	1	3	0	1	1	2	0	-999	-999	-999	-999	-999	-999	-999	-999	-999	-999	-999	-999	-999	-999	-999	-999	-999	-999	-999	-999	-999	-999	-999	-999	-999	-999	-999	-999	-999	-999	-999	-999	-999	-999	-999	-999	-999	-999	-999	-999	-999	-999	0	1	3	831	664	1	0	1	1	
00167	1	11.2.2020	1	17	0	1	3	1	1	3	0	0	-999	-999	-999	-999	-999	-999	-999	-999	-999	-999	-999	-999	-999	-999	-999	-999	-999	-999	-999	-999	-999	-999	-999	-999	-999	-999	-999	-999	-999	-999	-999	-999	-999	-999	-999	-999	-999	-999	-999	-999	-999	-999	1	3	3	863	664	1	1	1	1	
00167	1	11.2.2020	1	18	3	1	2	3	0	3	0	0	-999	-999	-999	-999	-999	-999	-999	-999	-999	-999	-999	-999	-999	-999	-999	-999	-999	-999	-999	-999	-999	-999	-999	-999	-999	-999	-999	-999	-999	-999	-999	-999	-999	-999	-999	-999	-999	-999	-999	-999	-999	-999	2	3	1	751	1247	1	0	1	1	
00167	1	11.2.2020	1	19	2	1	0	1	0	2	1	3	-999	-999	-999	-999	-999	-999	-999	-999	-999	-999	-999	-999	-999	-999	-999	-999	-999	-999	-999	-999	-999	-999	-999	-999	-999	-999	-999	-999	-999	-999	-999	-999	-999	-999	-999	-999	-999	-999	-999	-999	-999	-999	1	2	4	990	-999	0	-999	1	-999	
00167	1	11.2.2020	1	20	3	3	0	0	3	2	1	1	-999	-999	-999	-999	-999	-999	-999	-999	-999	-999	-999	-999	-999	-999	-999	-999	-999	-999	-999	-999	-999	-999	-999	-999	-999	-999	-999	-999	-999	-999	-999	-999	-999	-999	-999	-999	-999	-999	-999	-999	-999	-999	2	1	4	795	-999	0	-999	1	-999	
00167	1	11.2.2020	1	21	3	2	2	2	2	0	2	3	-999	-999	-999	-999	-999	-999	-999	-999	-999	-999	-999	-999	-999	-999	-999	-999	-999	-999	-999	-999	-999	-999	-999	-999	-999	-999	-999	-999	-999	-999	-999	-999	-999	-999	-999	-999	-999	-999	-999	-999	-999	-999	2	0	2	857	1729	1	0	1	1	
00167	1	11.2.2020	1	22	2	3	1	1	2	1	1	2	-999	-999	-999	-999	-999	-999	-999	-999	-999	-999	-999	-999	-999	-999	-999	-999	-999	-999	-999	-999	-999	-999	-999	-999	-999	-999	-999	-999	-999	-999	-999	-999	-999	-999	-999	-999	-999	-999	-999	-999	-999	-999	1	1	1	834	855	1	0	1	1	
00167	1	11.2.2020	1	23	0	0	0	1	3	2	3	0	-999	-999	-999	-999	-999	-999	-999	-999	-999	-999	-999	-999	-999	-999	-999	-999	-999	-999	-999	-999	-999	-999	-999	-999	-999	-999	-999	-999	-999	-999	-999	-999	-999	-999	-999	-999	-999	-999	-999	-999	-999	-999	0	3	1	705	-999	0	-999	1	-999	
00167	1	11.2.2020	2	0	3	0	1	0	0	2	3	1	1	1	2	1	0	0	-999	-999	-999	-999	-999	-999	-999	-999	-999	-999	-999	-999	-999	-999	-999	-999	-999	-999	-999	-999	-999	-999	-999	-999	-999	-999	-999	-999	-999	-999	-999	-999	-999	-999	-999	-999	1	2	5	1589	-999	0	-999	1	-999	
00167	1	11.2.2020	2	1	2	3	3	3	0	3	2	1	0	0	3	0	1	1	-999	-999	-999	-999	-999	-999	-999	-999	-999	-999	-999	-999	-999	-999	-999	-999	-999	-999	-999	-999	-999	-999	-999	-999	-999	-999	-999	-999	-999	-999	-999	-999	-999	-999	-999	-999	2	3	4	1488	1312	1	0	1	1	
00167	1	11.2.2020	2	2	3	3	3	0	0	2	1	1	0	1	2	1	2	2	-999	-999	-999	-999	-999	-999	-999	-999	-999	-999	-999	-999	-999	-999	-999	-999	-999	-999	-999	-999	-999	-999	-999	-999	-999	-999	-999	-999	-999	-999	-999	-999	-999	-999	-999	-999	3	0	5	1111	839	1	0	1	1	
00167	1	11.2.2020	2	3	0	2	1	0	3	2	1	1	0	0	2	2	0	1	-999	-999	-999	-999	-999	-999	-999	-999	-999	-999	-999	-999	-999	-999	-999	-999	-999	-999	-999	-999	-999	-999	-999	-999	-999	-999	-999	-999	-999	-999	-999	-999	-999	-999	-999	-999	1	2	3	1925	3073	1	1	0	-999	
00167	1	11.2.2020	2	4	2	2	1	3	3	1	2	3	1	0	0	3	3	3	-999	-999	-999	-999	-999	-999	-999	-999	-999	-999	-999	-999	-999	-999	-999	-999	-999	-999	-999	-999	-999	-999	-999	-999	-999	-999	-999	-999	-999	-999	-999	-999	-999	-999	-999	-999	1	0	6	883	1169	1	0	1	1	
00167	1	11.2.2020	2	5	0	3	0	2	0	1	1	0	2	0	1	1	1	3	-999	-999	-999	-999	-999	-999	-999	-999	-999	-999	-999	-999	-999	-999	-999	-999	-999	-999	-999	-999	-999	-999	-999	-999	-999	-999	-999	-999	-999	-999	-999	-999	-999	-999	-999	-999	1	2	4	1065	-999	0	-999	1	-999	
00167	1	11.2.2020	2	6	2	0	0	0	0	1	0	2	1	1	3	1	3	3	-999	-999	-999	-999	-999	-999	-999	-999	-999	-999	-999	-999	-999	-999	-999	-999	-999	-999	-999	-999	-999	-999	-999	-999	-999	-999	-999	-999	-999	-999	-999	-999	-999	-999	-999	-999	2	3	6	957	-999	0	-999	1	-999	
00167	1	11.2.2020	2	7	3	2	2	1	3	0	0	3	0	0	2	3	1	3	-999	-999	-999	-999	-999	-999	-999	-999	-999	-999	-999	-999	-999	-999	-999	-999	-999	-999	-999	-999	-999	-999	-999	-999	-999	-999	-999	-999	-999	-999	-999	-999	-999	-999	-999	-999	3	0	3	1320	1776	1	1	1	1	
00167	1	11.2.2020	2	8	3	3	0	3	2	1	0	2	2	0	2	3	3	2	-999	-999	-999	-999	-999	-999	-999	-999	-999	-999	-999	-999	-999	-999	-999	-999	-999	-999	-999	-999	-999	-999	-999	-999	-999	-999	-999	-999	-999	-999	-999	-999	-999	-999	-999	-999	3	3	4	918	807	1	0	1	1	
00167	1	11.2.2020	2	9	3	3	3	0	1	0	3	2	0	0	2	3	2	2	-999	-999	-999	-999	-999	-999	-999	-999	-999	-999	-999	-999	-999	-999	-999	-999	-999	-999	-999	-999	-999	-999	-999	-999	-999	-999	-999	-999	-999	-999	-999	-999	-999	-999	-999	-999	3	3	1	1299	-999	0	-999	0	-999	
00167	1	11.2.2020	2	10	3	2	2	0	1	0	1	1	0	2	1	2	3	3	-999	-999	-999	-999	-999	-999	-999	-999	-999	-999	-999	-999	-999	-999	-999	-999	-999	-999	-999	-999	-999	-999	-999	-999	-999	-999	-999	-999	-999	-999	-999	-999	-999	-999	-999	-999	3	3	3	959	608	1	0	1	1	
00167	1	11.2.2020	2	11	1	0	1	2	3	0	3	1	2	3	2	0	3	2	-999	-999	-999	-999	-999	-999	-999	-999	-999	-999	-999	-999	-999	-999	-999	-999	-999	-999	-999	-999	-999	-999	-999	-999	-999	-999	-999	-999	-999	-999	-999	-999	-999	-999	-999	-999	2	1	1	1269	855	1	0	0	-999	
00167	1	11.2.2020	2	12	0	3	2	0	3	2	2	2	3	3	3	1	1	2	-999	-999	-999	-999	-999	-999	-999	-999	-999	-999	-999	-999	-999	-999	-999	-999	-999	-999	-999	-999	-999	-999	-999	-999	-999	-999	-999	-999	-999	-999	-999	-999	-999	-999	-999	-999	3	1	6	1346	-999	0	-999	0	-999	
00167	1	11.2.2020	2	13	3	1	0	3	0	1	2	2	1	3	1	1	1	0	-999	-999	-999	-999	-999	-999	-999	-999	-999	-999	-999	-999	-999	-999	-999	-999	-999	-999	-999	-999	-999	-999	-999	-999	-999	-999	-999	-999	-999	-999	-999	-999	-999	-999	-999	-999	0	0	7	870	-999	0	-999	1	-999	
00167	1	11.2.2020	2	14	2	0	3	3	2	3	3	2	1	0	3	1	0	2	-999	-999	-999	-999	-999	-999	-999	-999	-999	-999	-999	-999	-999	-999	-999	-999	-999	-999	-999	-999	-999	-999	-999	-999	-999	-999	-999	-999	-999	-999	-999	-999	-999	-999	-999	-999	2	2	3	1985	1128	1	0	0	-999	
00167	1	11.2.2020	2	15	1	0	0	2	0	3	2	1	2	2	1	2	1	1	-999	-999	-999	-999	-999	-999	-999	-999	-999	-999	-999	-999	-999	-999	-999	-999	-999	-999	-999	-999	-999	-999	-999	-999	-999	-999	-999	-999	-999	-999	-999	-999	-999	-999	-999	-999	2	1	4	2350	2185	1	0	1	0	
00167	1	11.2.2020	2	16	0	3	1	0	3	3	3	0	1	3	2	0	3	2	-999	-999	-999	-999	-999	-999	-999	-999	-999	-999	-999	-999	-999	-999	-999	-999	-999	-999	-999	-999	-999	-999	-999	-999	-999	-999	-999	-999	-999	-999	-999	-999	-999	-999	-999	-999	0	0	3	813	-999	0	-999	1	-999	
00167	1	11.2.2020	2	17	1	3	2	3	0	0	2	0	2	2	1	0	0	1	-999	-999	-999	-999	-999	-999	-999	-999	-999	-999	-999	-999	-999	-999	-999	-999	-999	-999	-999	-999	-999	-999	-999	-999	-999	-999	-999	-999	-999	-999	-999	-999	-999	-999	-999	-999	2	2	2	1112	1743	1	0	1	1	
00167	1	11.2.2020	2	18	3	0	0	2	2	2	1	3	0	1	3	1	0	0	-999	-999	-999	-999	-999	-999	-999	-999	-999	-999	-999	-999	-999	-999	-999	-999	-999	-999	-999	-999	-999	-999	-999	-999	-999	-999	-999	-999	-999	-999	-999	-999	-999	-999	-999	-999	0	2	2	957	1520	1	1	1	1	
00167	1	11.2.2020	2	19	3	0	0	0	0	1	3	1	0	2	1	1	2	2	-999	-999	-999	-999	-999	-999	-999	-999	-999	-999	-999	-999	-999	-999	-999	-999	-999	-999	-999	-999	-999	-999	-999	-999	-999	-999	-999	-999	-999	-999	-999	-999	-999	-999	-999	-999	1	3	2	772	-999	0	-999	1	-999	
00167	1	11.2.2020	2	20	0	2	3	1	2	0	1	3	3	2	0	3	1	0	-999	-999	-999	-999	-999	-999	-999	-999	-999	-999	-999	-999	-999	-999	-999	-999	-999	-999	-999	-999	-999	-999	-999	-999	-999	-999	-999	-999	-999	-999	-999	-999	-999	-999	-999	-999	2	0	3	1289	1687	1	0	1	0	
00167	1	11.2.2020	2	21	1	3	0	1	1	0	3	2	0	2	0	0	0	3	-999	-999	-999	-999	-999	-999	-999	-999	-999	-999	-999	-999	-999	-999	-999	-999	-999	-999	-999	-999	-999	-999	-999	-999	-999	-999	-999	-999	-999	-999	-999	-999	-999	-999	-999	-999	1	0	6	1070	1335	1	0	1	1	
00167	1	11.2.2020	2	22	3	2	1	0	1	2	0	1	2	2	3	3	3	1	-999	-999	-999	-999	-999	-999	-999	-999	-999	-999	-999	-999	-999	-999	-999	-999	-999	-999	-999	-999	-999	-999	-999	-999	-999	-999	-999	-999	-999	-999	-999	-999	-999	-999	-999	-999	3	3	6	979	1544	1	1	1	1	
00167	1	11.2.2020	2	23	2	3	0	1	2	1	2	2	3	2	3	1	3	0	-999	-999	-999	-999	-999	-999	-999	-999	-999	-999	-999	-999	-999	-999	-999	-999	-999	-999	-999	-999	-999	-999	-999	-999	-999	-999	-999	-999	-999	-999	-999	-999	-999	-999	-999	-999	0	1	1	928	1016	1	0	1	1	
00167	1	11.2.2020	3	0	0	0	2	0	3	1	2	1	3	2	0	2	0	3	-999	-999	-999	-999	-999	-999	-999	-999	-999	-999	-999	-999	-999	-999	-999	-999	-999	-999	-999	-999	-999	-999	-999	-999	-999	-999	-999	-999	-999	-999	-999	-999	-999	-999	-999	-999	2	2	5	1573	-999	0	-999	1	-999	
00167	1	11.2.2020	3	1	1	2	2	1	0	1	1	0	2	0	3	1	2	2	-999	-999	-999	-999	-999	-999	-999	-999	-999	-999	-999	-999	-999	-999	-999	-999	-999	-999	-999	-999	-999	-999	-999	-999	-999	-999	-999	-999	-999	-999	-999	-999	-999	-999	-999	-999	1	2	1	929	896	1	1	1	1	
00167	1	11.2.2020	3	2	2	2	3	2	0	2	0	3	1	2	1	3	2	0	-999	-999	-999	-999	-999	-999	-999	-999	-999	-999	-999	-999	-999	-999	-999	-999	-999	-999	-999	-999	-999	-999	-999	-999	-999	-999	-999	-999	-999	-999	-999	-999	-999	-999	-999	-999	1	0	4	806	-999	0	-999	1	-999	
00167	1	11.2.2020	3	3	1	0	1	2	3	0	2	0	1	3	2	2	2	3	-999	-999	-999	-999	-999	-999	-999	-999	-999	-999	-999	-999	-999	-999	-999	-999	-999	-999	-999	-999	-999	-999	-999	-999	-999	-999	-999	-999	-999	-999	-999	-999	-999	-999	-999	-999	1	0	1	867	1335	1	0	1	0	
00167	1	11.2.2020	3	4	0	2	2	1	2	3	0	3	2	2	3	1	3	0	-999	-999	-999	-999	-999	-999	-999	-999	-999	-999	-999	-999	-999	-999	-999	-999	-999	-999	-999	-999	-999	-999	-999	-999	-999	-999	-999	-999	-999	-999	-999	-999	-999	-999	-999	-999	2	1	7	896	1064	1	0	1	1	
00167	1	11.2.2020	3	5	0	3	1	0	2	0	3	3	2	2	2	3	3	1	-999	-999	-999	-999	-999	-999	-999	-999	-999	-999	-999	-999	-999	-999	-999	-999	-999	-999	-999	-999	-999	-999	-999	-999	-999	-999	-999	-999	-999	-999	-999	-999	-999	-999	-999	-999	2	2	5	1045	1855	1	1	1	1	
00167	1	11.2.2020	3	6	1	3	2	1	1	2	3	0	1	0	1	1	0	3	-999	-999	-999	-999	-999	-999	-999	-999	-999	-999	-999	-999	-999	-999	-999	-999	-999	-999	-999	-999	-999	-999	-999	-999	-999	-999	-999	-999	-999	-999	-999	-999	-999	-999	-999	-999	2	3	7	812	-999	0	-999	1	-999	
00167	1	11.2.2020	3	7	1	1	3	0	3	2	0	1	1	3	2	0	1	0	-999	-999	-999	-999	-999	-999	-999	-999	-999	-999	-999	-999	-999	-999	-999	-999	-999	-999	-999	-999	-999	-999	-999	-999	-999	-999	-999	-999	-999	-999	-999	-999	-999	-999	-999	-999	3	2	3	952	1616	1	1	1	1	
00167	1	11.2.2020	3	8	2	3	0	3	3	0	1	3	0	0	2	2	2	1	-999	-999	-999	-999	-999	-999	-999	-999	-999	-999	-999	-999	-999	-999	-999	-999	-999	-999	-999	-999	-999	-999	-999	-999	-999	-999	-999	-999	-999	-999	-999	-999	-999	-999	-999	-999	2	1	2	2165	-999	0	-999	0	-999	
00167	1	11.2.2020	3	9	3	1	1	0	0	0	3	2	3	3	1	1	1	2	-999	-999	-999	-999	-999	-999	-999	-999	-999	-999	-999	-999	-999	-999	-999	-999	-999	-999	-999	-999	-999	-999	-999	-999	-999	-999	-999	-999	-999	-999	-999	-999	-999	-999	-999	-999	3	3	4	905	2464	1	1	1	0	
00167	1	11.2.2020	3	10	0	1	2	3	1	1	3	2	1	3	2	1	2	2	-999	-999	-999	-999	-999	-999	-999	-999	-999	-999	-999	-999	-999	-999	-999	-999	-999	-999	-999	-999	-999	-999	-999	-999	-999	-999	-999	-999	-999	-999	-999	-999	-999	-999	-999	-999	3	2	1	887	1503	1	0	1	1	
00167	1	11.2.2020	3	11	3	1	1	0	0	0	0	1	3	2	3	0	0	2	-999	-999	-999	-999	-999	-999	-999	-999	-999	-999	-999	-999	-999	-999	-999	-999	-999	-999	-999	-999	-999	-999	-999	-999	-999	-999	-999	-999	-999	-999	-999	-999	-999	-999	-999	-999	1	0	2	850	1071	1	1	1	1	
00167	1	11.2.2020	3	12	1	1	2	1	1	0	2	3	3	3	0	3	0	1	-999	-999	-999	-999	-999	-999	-999	-999	-999	-999	-999	-999	-999	-999	-999	-999	-999	-999	-999	-999	-999	-999	-999	-999	-999	-999	-999	-999	-999	-999	-999	-999	-999	-999	-999	-999	1	1	5	815	655	1	0	1	1	
00167	1	11.2.2020	3	13	1	0	2	1	0	1	2	3	2	0	3	0	3	2	-999	-999	-999	-999	-999	-999	-999	-999	-999	-999	-999	-999	-999	-999	-999	-999	-999	-999	-999	-999	-999	-999	-999	-999	-999	-999	-999	-999	-999	-999	-999	-999	-999	-999	-999	-999	2	1	2	1217	2048	1	1	1	1	
00167	1	11.2.2020	3	14	1	0	2	2	3	2	0	1	0	0	3	0	1	3	-999	-999	-999	-999	-999	-999	-999	-999	-999	-999	-999	-999	-999	-999	-999	-999	-999	-999	-999	-999	-999	-999	-999	-999	-999	-999	-999	-999	-999	-999	-999	-999	-999	-999	-999	-999	2	3	6	967	-999	0	-999	1	-999	
00167	1	11.2.2020	3	15	0	1	2	0	0	0	2	2	0	2	3	2	2	3	-999	-999	-999	-999	-999	-999	-999	-999	-999	-999	-999	-999	-999	-999	-999	-999	-999	-999	-999	-999	-999	-999	-999	-999	-999	-999	-999	-999	-999	-999	-999	-999	-999	-999	-999	-999	2	0	3	810	2255	1	1	1	0	
00167	1	11.2.2020	3	16	2	2	1	1	2	1	2	3	0	2	3	2	3	1	-999	-999	-999	-999	-999	-999	-999	-999	-999	-999	-999	-999	-999	-999	-999	-999	-999	-999	-999	-999	-999	-999	-999	-999	-999	-999	-999	-999	-999	-999	-999	-999	-999	-999	-999	-999	2	3	4	775	2896	1	0	1	0	
00167	1	11.2.2020	3	17	1	3	1	1	0	3	1	2	3	1	2	1	2	3	-999	-999	-999	-999	-999	-999	-999	-999	-999	-999	-999	-999	-999	-999	-999	-999	-999	-999	-999	-999	-999	-999	-999	-999	-999	-999	-999	-999	-999	-999	-999	-999	-999	-999	-999	-999	0	2	1	788	-999	0	-999	1	-999	
00167	1	11.2.2020	3	18	2	0	1	1	1	0	0	0	1	2	0	3	3	2	-999	-999	-999	-999	-999	-999	-999	-999	-999	-999	-999	-999	-999	-999	-999	-999	-999	-999	-999	-999	-999	-999	-999	-999	-999	-999	-999	-999	-999	-999	-999	-999	-999	-999	-999	-999	0	3	6	815	1313	1	1	1	1	
00167	1	11.2.2020	3	19	2	2	2	3	3	3	0	0	0	3	1	2	1	0	-999	-999	-999	-999	-999	-999	-999	-999	-999	-999	-999	-999	-999	-999	-999	-999	-999	-999	-999	-999	-999	-999	-999	-999	-999	-999	-999	-999	-999	-999	-999	-999	-999	-999	-999	-999	1	1	4	998	-999	0	-999	1	-999	
00167	1	11.2.2020	3	20	0	2	1	2	3	2	2	0	3	0	1	3	2	1	-999	-999	-999	-999	-999	-999	-999	-999	-999	-999	-999	-999	-999	-999	-999	-999	-999	-999	-999	-999	-999	-999	-999	-999	-999	-999	-999	-999	-999	-999	-999	-999	-999	-999	-999	-999	2	1	7	1225	745	1	1	1	1	
00167	1	11.2.2020	3	21	0	2	3	0	1	1	3	3	3	2	1	2	3	1	-999	-999	-999	-999	-999	-999	-999	-999	-999	-999	-999	-999	-999	-999	-999	-999	-999	-999	-999	-999	-999	-999	-999	-999	-999	-999	-999	-999	-999	-999	-999	-999	-999	-999	-999	-999	3	0	3	1292	1815	1	1	1	0	
00167	1	11.2.2020	3	22	3	3	0	2	1	3	3	1	1	2	2	2	1	0	-999	-999	-999	-999	-999	-999	-999	-999	-999	-999	-999	-999	-999	-999	-999	-999	-999	-999	-999	-999	-999	-999	-999	-999	-999	-999	-999	-999	-999	-999	-999	-999	-999	-999	-999	-999	2	3	2	953	-999	0	-999	1	-999	
00167	1	11.2.2020	3	23	2	1	1	1	2	2	1	2	3	2	3	1	0	3	-999	-999	-999	-999	-999	-999	-999	-999	-999	-999	-999	-999	-999	-999	-999	-999	-999	-999	-999	-999	-999	-999	-999	-999	-999	-999	-999	-999	-999	-999	-999	-999	-999	-999	-999	-999	2	1	7	796	1087	1	0	1	1	
00167	1	11.2.2020	4	0	1	2	0	3	1	1	0	2	-999	-999	-999	-999	-999	-999	-999	-999	-999	-999	-999	-999	-999	-999	-999	-999	-999	-999	-999	-999	-999	-999	-999	-999	-999	-999	-999	-999	-999	-999	-999	-999	-999	-999	-999	-999	-999	-999	-999	-999	-999	-999	0	3	2	865	880	1	1	1	1	
00167	1	11.2.2020	4	1	1	2	0	1	3	3	0	2	-999	-999	-999	-999	-999	-999	-999	-999	-999	-999	-999	-999	-999	-999	-999	-999	-999	-999	-999	-999	-999	-999	-999	-999	-999	-999	-999	-999	-999	-999	-999	-999	-999	-999	-999	-999	-999	-999	-999	-999	-999	-999	2	2	1	849	-999	0	-999	1	-999	
00167	1	11.2.2020	4	2	2	0	2	3	3	2	1	0	-999	-999	-999	-999	-999	-999	-999	-999	-999	-999	-999	-999	-999	-999	-999	-999	-999	-999	-999	-999	-999	-999	-999	-999	-999	-999	-999	-999	-999	-999	-999	-999	-999	-999	-999	-999	-999	-999	-999	-999	-999	-999	2	0	1	870	489	1	1	1	1	
00167	1	11.2.2020	4	3	2	0	1	3	1	2	2	1	-999	-999	-999	-999	-999	-999	-999	-999	-999	-999	-999	-999	-999	-999	-999	-999	-999	-999	-999	-999	-999	-999	-999	-999	-999	-999	-999	-999	-999	-999	-999	-999	-999	-999	-999	-999	-999	-999	-999	-999	-999	-999	0	3	1	670	-999	0	-999	1	-999	
00167	1	11.2.2020	4	4	3	3	1	1	1	0	3	1	-999	-999	-999	-999	-999	-999	-999	-999	-999	-999	-999	-999	-999	-999	-999	-999	-999	-999	-999	-999	-999	-999	-999	-999	-999	-999	-999	-999	-999	-999	-999	-999	-999	-999	-999	-999	-999	-999	-999	-999	-999	-999	3	3	3	549	688	1	0	1	1	
00167	1	11.2.2020	4	5	2	0	2	1	0	1	0	0	-999	-999	-999	-999	-999	-999	-999	-999	-999	-999	-999	-999	-999	-999	-999	-999	-999	-999	-999	-999	-999	-999	-999	-999	-999	-999	-999	-999	-999	-999	-999	-999	-999	-999	-999	-999	-999	-999	-999	-999	-999	-999	2	0	1	653	447	1	1	1	1	
00167	1	11.2.2020	4	6	0	2	3	0	2	1	0	3	-999	-999	-999	-999	-999	-999	-999	-999	-999	-999	-999	-999	-999	-999	-999	-999	-999	-999	-999	-999	-999	-999	-999	-999	-999	-999	-999	-999	-999	-999	-999	-999	-999	-999	-999	-999	-999	-999	-999	-999	-999	-999	0	3	2	788	720	1	0	1	1	
00167	1	11.2.2020	4	7	2	1	0	1	0	2	3	1	-999	-999	-999	-999	-999	-999	-999	-999	-999	-999	-999	-999	-999	-999	-999	-999	-999	-999	-999	-999	-999	-999	-999	-999	-999	-999	-999	-999	-999	-999	-999	-999	-999	-999	-999	-999	-999	-999	-999	-999	-999	-999	2	1	1	668	431	1	1	1	1	
00167	1	11.2.2020	4	8	3	3	0	2	2	2	3	1	-999	-999	-999	-999	-999	-999	-999	-999	-999	-999	-999	-999	-999	-999	-999	-999	-999	-999	-999	-999	-999	-999	-999	-999	-999	-999	-999	-999	-999	-999	-999	-999	-999	-999	-999	-999	-999	-999	-999	-999	-999	-999	0	2	1	643	808	1	0	1	1	
00167	1	11.2.2020	4	9	3	0	0	2	3	1	1	0	-999	-999	-999	-999	-999	-999	-999	-999	-999	-999	-999	-999	-999	-999	-999	-999	-999	-999	-999	-999	-999	-999	-999	-999	-999	-999	-999	-999	-999	-999	-999	-999	-999	-999	-999	-999	-999	-999	-999	-999	-999	-999	2	1	3	1539	-999	0	-999	1	-999	
00167	1	11.2.2020	4	10	2	1	1	3	3	2	1	1	-999	-999	-999	-999	-999	-999	-999	-999	-999	-999	-999	-999	-999	-999	-999	-999	-999	-999	-999	-999	-999	-999	-999	-999	-999	-999	-999	-999	-999	-999	-999	-999	-999	-999	-999	-999	-999	-999	-999	-999	-999	-999	0	0	3	769	-999	0	-999	1	-999	
00167	1	11.2.2020	4	11	0	3	3	3	3	1	1	1	-999	-999	-999	-999	-999	-999	-999	-999	-999	-999	-999	-999	-999	-999	-999	-999	-999	-999	-999	-999	-999	-999	-999	-999	-999	-999	-999	-999	-999	-999	-999	-999	-999	-999	-999	-999	-999	-999	-999	-999	-999	-999	3	1	4	1030	897	1	0	1	1	
00167	1	11.2.2020	4	12	0	3	1	3	3	0	3	3	-999	-999	-999	-999	-999	-999	-999	-999	-999	-999	-999	-999	-999	-999	-999	-999	-999	-999	-999	-999	-999	-999	-999	-999	-999	-999	-999	-999	-999	-999	-999	-999	-999	-999	-999	-999	-999	-999	-999	-999	-999	-999	1	2	3	975	-999	0	-999	1	-999	
00167	1	11.2.2020	4	13	2	2	1	1	0	3	2	3	-999	-999	-999	-999	-999	-999	-999	-999	-999	-999	-999	-999	-999	-999	-999	-999	-999	-999	-999	-999	-999	-999	-999	-999	-999	-999	-999	-999	-999	-999	-999	-999	-999	-999	-999	-999	-999	-999	-999	-999	-999	-999	2	2	3	700	656	1	0	1	1	
00167	1	11.2.2020	4	14	0	0	3	1	2	3	1	1	-999	-999	-999	-999	-999	-999	-999	-999	-999	-999	-999	-999	-999	-999	-999	-999	-999	-999	-999	-999	-999	-999	-999	-999	-999	-999	-999	-999	-999	-999	-999	-999	-999	-999	-999	-999	-999	-999	-999	-999	-999	-999	0	0	1	811	712	1	1	1	1	
00167	1	11.2.2020	4	15	1	0	2	1	0	2	1	2	-999	-999	-999	-999	-999	-999	-999	-999	-999	-999	-999	-999	-999	-999	-999	-999	-999	-999	-999	-999	-999	-999	-999	-999	-999	-999	-999	-999	-999	-999	-999	-999	-999	-999	-999	-999	-999	-999	-999	-999	-999	-999	1	1	1	732	-999	0	-999	1	-999	
00167	1	11.2.2020	4	16	0	1	0	3	2	0	2	3	-999	-999	-999	-999	-999	-999	-999	-999	-999	-999	-999	-999	-999	-999	-999	-999	-999	-999	-999	-999	-999	-999	-999	-999	-999	-999	-999	-999	-999	-999	-999	-999	-999	-999	-999	-999	-999	-999	-999	-999	-999	-999	0	3	1	809	800	1	0	1	1	
00167	1	11.2.2020	4	17	1	2	2	2	0	2	3	0	-999	-999	-999	-999	-999	-999	-999	-999	-999	-999	-999	-999	-999	-999	-999	-999	-999	-999	-999	-999	-999	-999	-999	-999	-999	-999	-999	-999	-999	-999	-999	-999	-999	-999	-999	-999	-999	-999	-999	-999	-999	-999	0	1	2	769	-999	0	-999	1	-999	
00167	1	11.2.2020	4	18	2	1	2	0	3	1	2	3	-999	-999	-999	-999	-999	-999	-999	-999	-999	-999	-999	-999	-999	-999	-999	-999	-999	-999	-999	-999	-999	-999	-999	-999	-999	-999	-999	-999	-999	-999	-999	-999	-999	-999	-999	-999	-999	-999	-999	-999	-999	-999	1	3	2	702	-999	0	-999	1	-999	
00167	1	11.2.2020	4	19	3	1	2	1	3	0	0	1	-999	-999	-999	-999	-999	-999	-999	-999	-999	-999	-999	-999	-999	-999	-999	-999	-999	-999	-999	-999	-999	-999	-999	-999	-999	-999	-999	-999	-999	-999	-999	-999	-999	-999	-999	-999	-999	-999	-999	-999	-999	-999	3	1	2	811	1256	0	1	0	-999	
00167	1	11.2.2020	4	20	2	1	0	0	3	2	1	0	-999	-999	-999	-999	-999	-999	-999	-999	-999	-999	-999	-999	-999	-999	-999	-999	-999	-999	-999	-999	-999	-999	-999	-999	-999	-999	-999	-999	-999	-999	-999	-999	-999	-999	-999	-999	-999	-999	-999	-999	-999	-999	0	3	2	619	-999	0	-999	1	-999	
00167	1	11.2.2020	4	21	2	0	1	3	1	0	0	3	-999	-999	-999	-999	-999	-999	-999	-999	-999	-999	-999	-999	-999	-999	-999	-999	-999	-999	-999	-999	-999	-999	-999	-999	-999	-999	-999	-999	-999	-999	-999	-999	-999	-999	-999	-999	-999	-999	-999	-999	-999	-999	2	0	1	936	511	1	1	1	1	
00167	1	11.2.2020	4	22	2	3	1	2	3	1	3	0	-999	-999	-999	-999	-999	-999	-999	-999	-999	-999	-999	-999	-999	-999	-999	-999	-999	-999	-999	-999	-999	-999	-999	-999	-999	-999	-999	-999	-999	-999	-999	-999	-999	-999	-999	-999	-999	-999	-999	-999	-999	-999	2	1	3	823	-999	0	-999	1	-999	
00167	1	11.2.2020	4	23	2	1	1	2	2	0	0	2	-999	-999	-999	-999	-999	-999	-999	-999	-999	-999	-999	-999	-999	-999	-999	-999	-999	-999	-999	-999	-999	-999	-999	-999	-999	-999	-999	-999	-999	-999	-999	-999	-999	-999	-999	-999	-999	-999	-999	-999	-999	-999	2	1	1	957	487	1	1	1	1	
